File: Customer_Executions/Additional_Dates/Fund_Date_Data/TGA.csv
,portfoy_degeri,record_date,fon_tutari,data_date,fund_code,toplam_pay_sayisi,record_id,kisi_sayisi,hazir_deger,bpp_degeri,price,isin_code,id,aktif_deger,tedavuldeki_pay_sayisi
0,11008646.11,2018-12-13T10:14:57,100000000.0,2018-12-03,TGA,10000000000.0,TGA03122018,847,13479.34,0.0,0.025105,TRYGRAN00076,9032342.0,10981559.27,437430090.0
2,11917596.15,2018-12-15T10:14:55,100000000.0,2018-12-05,TGA,10000000000.0,TGA05122018,867,11868.59,0.0,0.025004,TRYGRAN00076,9082419.0,11449038.24,457879376.0
4,11452427.41,2018-12-17T10:14:59,100000000.0,2018-12-07,TGA,10000000000.0,TGA07122018,867,12429.58,0.0,0.024933,TRYGRAN00076,9098771.0,11376122.58,456273209.0
6,11263159.72,2018-12-21T10:14:56,100000000.0,2018-12-11,TGA,10000000000.0,TGA11122018,861,10373.66,0.0,0.025046,TRYGRAN00076,9194839.0,11245640.75,449000039.0
8,11127316.35,2018-12-23T10:14:54,100000000.0,2018-12-13,TGA,10000000000.0,TGA13122018,863,10302.7,0.0,0.024995,TRYGRAN00076,9227543.0,11121332.07,444935853.0
10,11075885.17,2018-12-27T10:14:57,100000000.0,2018-12-17,TGA,10000000000.0,TGA17122018,868,10808.01,0.0,0.025018,TRYGRAN00076,9307259.0,11062515.76,442180853.0
12,11062598.38,2018-12-29T10:14:58,100000000.0,2018-12-19,TGA,10000000000.0,TGA19122018,865,9738.34,0.0,0.025029,TRYGRAN00076,9357234.0,11017303.73,440182357.0
14,11236638.07,2018-12-31T10:15:00,100000000.0,2018-12-21,TGA,10000000000.0,TGA21122018,857,10107.47,0.0,0.025123,TRYGRAN00076,9373585.0,11024485.02,438826243.0
16,11076023.33,2019-01-04T10:14:57,100000000.0,2018-12-25,TGA,10000000000.0,TGA25122018,853,10710.07,0.0,0.025185,TRYGRAN00076,9450235.0,11054618.24,438933465.0
18,10893940.08,2019-01-06T10:14:55,100000000.0,2018-12-27,TGA,10000000000.0,TGA27122018,852,10446.11,0.0,0.025209,TRYGRAN00076,9480895.0,10999396.61,436334806.0
20,10889944.67,2019-01-10T10:14:57,100000000.0,2018-12-31,TGA,10000000000.0,TGA31122018,854,9288.05,0.0,0.02521,TRYGRAN00076,9556524.0,10872444.11,431274413.0
22,10937690.96,2019-01-13T10:14:57,100000000.0,2019-01-03,TGA,10000000000.0,TGA03012019,857,10780.54,0.0,0.025166,TRYGRAN00076,9612630.0,10911469.2,433572920.0
24,11223098.47,2019-01-17T10:14:57,100000000.0,2019-01-07,TGA,10000000000.0,TGA07012019,857,10846.33,0.0,0.025367,TRYGRAN00076,9692346.0,11108581.1,437917487.0
26,11124554.06,2019-01-19T10:14:55,100000000.0,2019-01-09,TGA,10000000000.0,TGA09012019,856,10999.16,0.0,0.025324,TRYGRAN00076,9742424.0,11039030.92,435915064.0
28,10884377.34,2019-01-21T10:14:59,100000000.0,2019-01-11,TGA,10000000000.0,TGA11012019,848,8292.99,0.0,0.025308,TRYGRAN00076,9758777.0,10791336.05,426406297.0
30,10668572.54,2019-01-25T10:14:56,100000000.0,2019-01-15,TGA,10000000000.0,TGA15012019,843,8776.53,0.0,0.025315,TRYGRAN00076,9855867.0,10762699.8,425146186.0
32,10797409.95,2019-01-27T10:14:57,100000000.0,2019-01-17,TGA,10000000000.0,TGA17012019,839,5817.46,0.0,0.025357,TRYGRAN00076,9888468.0,10779205.14,425089863.0
34,10801309.09,2019-01-31T10:14:57,100000000.0,2019-01-21,TGA,10000000000.0,TGA21012019,838,6067.08,0.0,0.025312,TRYGRAN00076,9968184.0,10708332.49,423048592.0
36,10102387.14,2019-02-02T10:14:55,100000000.0,2019-01-23,TGA,10000000000.0,TGA23012019,832,9291.86,0.0,0.025512,TRYGRAN00076,10018262.0,10614898.74,416070304.0
38,10637667.51,2019-02-04T10:15:00,100000000.0,2019-01-25,TGA,10000000000.0,TGA25012019,826,5301.53,0.0,0.025636,TRYGRAN00076,10034616.0,10290018.88,401394932.0
40,10634064.87,2019-02-08T10:14:56,100000000.0,2019-01-29,TGA,10000000000.0,TGA29012019,822,9570.07,0.0,0.025759,TRYGRAN00076,10131706.0,10618097.36,412205101.0
42,10621050.89,2019-02-10T10:14:54,100000000.0,2019-01-31,TGA,10000000000.0,TGA31012019,822,9664.44,0.0,0.0258,TRYGRAN00076,10164410.0,10599899.3,410848961.0
44,10611789.42,2019-02-14T10:14:58,100000000.0,2019-02-04,TGA,10000000000.0,TGA04022019,824,3399.66,0.0,0.025787,TRYGRAN00076,10244125.0,10596431.97,410927342.0
46,10607858.03,2019-02-16T10:14:56,100000000.0,2019-02-06,TGA,10000000000.0,TGA06022019,824,5289.94,0.0,0.025851,TRYGRAN00076,10294203.0,10583536.55,409402594.0
48,10652520.34,2019-02-18T10:14:58,100000000.0,2019-02-08,TGA,10000000000.0,TGA08022019,826,9150.23,0.0,0.025971,TRYGRAN00076,10310452.0,10646998.1,409954725.0
50,10680217.83,2019-02-22T10:14:56,100000000.0,2019-02-12,TGA,10000000000.0,TGA12022019,829,8360.56,0.0,0.026048,TRYGRAN00076,10407543.0,10666855.89,409508301.0
52,11065596.38,2019-02-24T10:14:54,100000000.0,2019-02-14,TGA,10000000000.0,TGA14022019,832,7662.92,0.0,0.026036,TRYGRAN00076,10440246.0,11050904.2,424445073.0
54,11102781.58,2019-02-28T10:14:57,100000000.0,2019-02-18,TGA,10000000000.0,TGA18022019,831,9475.19,0.0,0.026133,TRYGRAN00076,10519962.0,11091812.13,424436700.0
56,11123385.51,2019-03-02T10:14:55,100000000.0,2019-02-20,TGA,10000000000.0,TGA20022019,830,7551.84,0.0,0.026172,TRYGRAN00076,10570042.0,11102993.4,424225768.0
58,11406927.46,2019-03-04T10:14:52,100000000.0,2019-02-22,TGA,10000000000.0,TGA22022019,833,9224.89,0.0,0.026341,TRYGRAN00076,10586378.0,11406656.95,433030592.0
60,12001003.84,2019-03-08T10:15:00,100000000.0,2019-02-26,TGA,10000000000.0,TGA26022019,848,8571.94,0.0,0.026331,TRYGRAN00076,10658940.0,11986170.23,455205195.0
62,13318346.44,2019-03-08T14:40:51,100000000.0,2019-02-28,TGA,10000000000.0,TGA28022019,858,5395.59,0.0,0.026372,TRYGRAN00076,10660984.0,12634260.05,479082387.0
64,12829496.34,2019-03-08T14:43:06,100000000.0,2019-03-04,TGA,10000000000.0,TGA04032019,862,6692.48,0.0,0.026459,TRYGRAN00076,10663028.0,12815813.58,484359111.0
66,13342935.49,2019-03-07T10:15:18,100000000.0,2019-03-06,TGA,10000000000.0,TGA06032019,867,9255.65,0.0,0.026474,TRYGRAN00076,10665073.0,13316272.98,502986410.0
68,13041363.41,2019-03-08T10:50:00,100000000.0,2019-03-08,TGA,10000000000.0,TGA08032019,861,8409.68,0.0,0.026558,TRYGRAN00076,10668139.0,13030228.88,490639626.0
70,13726102.75,2019-03-12T10:22:47,100000000.0,2019-03-12,TGA,10000000000.0,TGA12032019,869,8861.55,0.0,0.026524,TRYGRAN00076,10670630.0,12471066.19,470185252.0
72,12636525.64,2019-03-14T10:50:00,100000000.0,2019-03-14,TGA,10000000000.0,TGA14032019,870,4230.7,0.0,0.026444,TRYGRAN00076,10675859.0,12601109.4,476522158.0
74,12785192.2,2019-03-18T10:30:32,100000000.0,2019-03-18,TGA,10000000000.0,TGA18032019,879,9089.87,0.0,0.02658,TRYGRAN00076,10680910.0,12010346.11,451852506.0
76,12201105.68,2019-03-20T10:24:48,100000000.0,2019-03-20,TGA,10000000000.0,TGA20032019,878,8999.99,0.0,0.0266,TRYGRAN00076,10686206.0,12090868.56,454544619.0
78,12571996.39,2019-03-22T09:50:00,100000000.0,2019-03-22,TGA,10000000000.0,TGA21032019,877,6569.06,0.0,0.026671,TRYGRAN00076,10691697.0,12500934.06,468703087.0
80,12477036.2,2019-03-26T09:50:00,100000000.0,2019-03-26,TGA,10000000000.0,TGA25032019,875,8656.9,0.0,0.02643,TRYGRAN00076,11877219.0,12454547.46,471223327.0
82,12860340.91,2019-03-28T09:50:00,100000000.0,2019-03-28,TGA,10000000000.0,TGA27032019,869,6211.68,0.0,0.02542,TRYGRAN00076,11882490.0,11678044.35,459399109.0
84,12108245.33,2019-04-01T09:50:00,100000000.0,2019-04-01,TGA,10000000000.0,TGA01042019,862,8962.02,0.0,0.026438,TRYGRAN00076,11889321.0,12105463.55,457882225.0
86,12202702.96,2019-04-03T09:50:00,100000000.0,2019-04-03,TGA,10000000000.0,TGA03042019,867,8512.6,0.0,0.026511,TRYGRAN00076,11891859.0,12171321.74,459109367.0
88,12082397.99,2019-04-05T10:50:00,100000000.0,2019-04-05,TGA,10000000000.0,TGA05042019,865,6138.21,0.0,0.026371,TRYGRAN00076,11893407.0,12010535.13,455442081.0
90,12117498.41,2019-04-09T09:50:00,100000000.0,2019-04-09,TGA,10000000000.0,TGA09042019,864,6791.74,0.0,0.026622,TRYGRAN00076,11894957.0,12016150.16,451357215.0
92,11906862.7,2019-04-11T09:50:00,100000000.0,2019-04-11,TGA,10000000000.0,TGA11042019,858,6988.39,0.0,0.026672,TRYGRAN00076,11896489.0,11813000.51,442906269.0
94,11840411.3,2019-04-15T10:50:01,100000000.0,2019-04-15,TGA,10000000000.0,TGA15042019,852,8059.2,0.0,0.026652,TRYGRAN00076,11898017.0,11799338.11,442713116.0
96,11860385.94,2019-04-17T09:50:00,100000000.0,2019-04-17,TGA,10000000000.0,TGA17042019,848,8533.4,0.0,0.026763,TRYGRAN00076,11899552.0,11842505.41,442487788.0
98,11977279.52,2019-04-19T09:50:00,100000000.0,2019-04-19,TGA,10000000000.0,TGA19042019,849,5137.39,0.0,0.026833,TRYGRAN00076,11901080.0,11961765.21,445784801.0
100,11631315.54,2019-04-24T10:50:01,100000000.0,2019-04-24,TGA,10000000000.0,TGA24042019,850,8162.25,0.0,0.026852,TRYGRAN00076,11902606.0,11872282.14,442136662.0
102,11717907.81,2019-04-26T09:50:01,100000000.0,2019-04-26,TGA,10000000000.0,TGA26042019,847,4259.1,0.0,0.026927,TRYGRAN00076,11904136.0,11484089.14,426493766.0
104,9954259.09,2019-04-30T10:50:00,100000000.0,2019-04-30,TGA,10000000000.0,TGA30042019,842,8354.0,0.0,0.026936,TRYGRAN00076,11905675.0,11358551.15,421689704.0
106,10048368.5,2019-05-03T09:50:00,100000000.0,2019-05-03,TGA,10000000000.0,TGA03052019,833,8424.17,0.0,0.02713,TRYGRAN00076,11907215.0,9956209.01,366987809.0
108,9579350.4,2019-05-07T10:50:01,100000000.0,2019-05-07,TGA,10000000000.0,TGA07052019,830,11803.25,0.0,0.027075,TRYGRAN00076,11908736.0,9666296.24,357019022.0
110,9284863.57,2019-05-09T10:50:00,100000000.0,2019-05-09,TGA,10000000000.0,TGA09052019,819,8213.55,0.0,0.027138,TRYGRAN00076,11910284.0,9372018.35,345346388.0
112,9413696.94,2019-05-13T10:50:01,100000000.0,2019-05-13,TGA,10000000000.0,TGA13052019,813,6650.4,0.0,0.027408,TRYGRAN00076,11911803.0,9367059.42,341769696.0
114,9385561.7,2019-05-15T10:50:00,100000000.0,2019-05-15,TGA,10000000000.0,TGA15052019,815,6226.42,0.0,0.027501,TRYGRAN00076,11913339.0,9316453.06,338769250.0
116,9465832.73,2019-05-17T10:50:00,100000000.0,2019-05-17,TGA,10000000000.0,TGA17052019,818,9126.43,0.0,0.0276,TRYGRAN00076,11914880.0,9340494.5,338420012.0
118,10238632.44,2019-05-21T10:50:00,100000000.0,2019-05-21,TGA,10000000000.0,TGA21052019,819,7508.99,0.0,0.027567,TRYGRAN00076,11916426.0,9764999.65,354227615.0
120,9794844.23,2019-05-23T09:50:01,100000000.0,2019-05-23,TGA,10000000000.0,TGA23052019,818,7900.89,0.0,0.02755,TRYGRAN00076,11917950.0,9815310.86,356268597.0
122,9815736.85,2019-05-27T11:50:00,100000000.0,2019-05-27,TGA,10000000000.0,TGA27052019,817,9435.94,0.0,0.027784,TRYGRAN00076,11919484.0,9805108.87,352907718.0
124,9699966.25,2019-05-29T10:50:00,100000000.0,2019-05-29,TGA,10000000000.0,TGA29052019,818,6245.78,0.0,0.027652,TRYGRAN00076,11921031.0,9656801.93,349232413.0
126,9789957.78,2019-05-31T10:50:00,100000000.0,2019-05-31,TGA,10000000000.0,TGA31052019,820,8598.66,0.0,0.027901,TRYGRAN00076,11922552.0,9759212.05,349773756.0
128,9888874.68,2019-06-07T09:50:00,100000000.0,2019-06-07,TGA,10000000000.0,TGA07062019,829,9944.33,0.0,0.028166,TRYGRAN00076,11924106.0,9924824.02,352364334.0
130,9709004.45,2019-06-11T11:50:00,100000000.0,2019-06-11,TGA,10000000000.0,TGA11062019,833,5542.46,0.0,0.028035,TRYGRAN00076,11925644.0,9898225.75,353071909.0
132,9659587.44,2019-06-13T10:50:00,100000000.0,2019-06-13,TGA,10000000000.0,TGA13062019,834,8959.84,0.0,0.028126,TRYGRAN00076,11927181.0,9756513.97,346891543.0
134,9706951.58,2019-06-17T10:50:00,100000000.0,2019-06-17,TGA,10000000000.0,TGA17062019,834,8577.07,0.0,0.028227,TRYGRAN00076,11928698.0,9690557.93,343310723.0
136,10026096.1,2019-06-19T09:26:25,100000000.0,2019-06-19,TGA,10000000000.0,TGA19062019,833,9809.23,0.0,0.028264,TRYGRAN00076,11930252.0,9960171.0,352403946.0
138,10259001.54,2019-06-21T09:29:41,100000000.0,2019-06-21,TGA,10000000000.0,TGA21062019,837,6038.37,0.0,0.028358,TRYGRAN00076,11931795.0,10124335.73,357018138.0
140,10031967.6,2019-06-25T09:26:06,100000000.0,2019-06-25,TGA,10000000000.0,TGA25062019,837,6442.9,0.0,0.028424,TRYGRAN00076,11933320.0,9990762.99,351489779.0
142,10188837.93,2019-06-27T09:29:53,100000000.0,2019-06-27,TGA,10000000000.0,TGA27062019,837,6355.11,0.0,0.028366,TRYGRAN00076,11934861.0,10175495.21,358715347.0
144,10223119.27,2019-07-01T09:25:06,100000000.0,2019-07-01,TGA,10000000000.0,TGA01072019,836,8552.73,661274.8,0.028446,TRYGRAN00076,11936417.0,10156741.23,357053695.0
146,10220468.53,2019-07-03T09:29:26,100000000.0,2019-07-03,TGA,10000000000.0,TGA03072019,839,5203.92,0.0,0.02857,TRYGRAN00076,11937959.0,10183882.38,356451830.0
148,10563961.85,2019-07-05T09:30:20,100000000.0,2019-07-05,TGA,10000000000.0,TGA05072019,844,5379.22,330209.76,0.028486,TRYGRAN00076,11939513.0,10488090.26,368187624.0
150,10467459.27,2019-07-09T09:26:28,100000000.0,2019-07-09,TGA,10000000000.0,TGA09072019,842,9005.66,180115.16,0.028566,TRYGRAN00076,11941040.0,10490108.24,367221149.0
152,10453846.84,2019-07-11T09:30:19,100000000.0,2019-07-11,TGA,10000000000.0,TGA11072019,847,8902.65,0.0,0.028584,TRYGRAN00076,11942582.0,10454440.89,365738434.0
154,10930784.22,2019-07-16T09:25:04,100000000.0,2019-07-16,TGA,10000000000.0,TGA16072019,852,15679.98,0.0,0.028704,TRYGRAN00076,11944148.0,10937033.43,381029691.0
156,11010794.94,2019-07-18T09:30:56,100000000.0,2019-07-18,TGA,10000000000.0,TGA18072019,853,9582.54,0.0,0.028819,TRYGRAN00076,11945676.0,10919463.9,378893685.0
158,10964224.46,2019-07-22T09:25:38,100000000.0,2019-07-22,TGA,10000000000.0,TGA22072019,848,5299.64,0.0,0.028868,TRYGRAN00076,11947206.0,10922519.88,378366125.0
160,11030849.93,2019-07-24T09:27:35,100000000.0,2019-07-24,TGA,10000000000.0,TGA24072019,850,7462.27,0.0,0.028865,TRYGRAN00076,11948756.0,10921546.99,378362809.0
162,11474761.78,2019-07-26T09:30:53,100000000.0,2019-07-26,TGA,10000000000.0,TGA26072019,856,4208.88,0.0,0.028974,TRYGRAN00076,11950310.0,11396513.35,393341218.0
164,11476223.33,2019-07-30T09:29:28,100000000.0,2019-07-30,TGA,10000000000.0,TGA30072019,861,5511.6,0.0,0.029097,TRYGRAN00076,11951828.0,11361749.68,390474699.0
166,11746748.7,2019-08-01T09:34:30,100000000.0,2019-08-01,TGA,10000000000.0,TGA01082019,865,9085.98,0.0,0.029002,TRYGRAN00076,11953392.0,11725436.89,404301971.0
168,12556959.08,2019-08-05T09:27:23,100000000.0,2019-08-05,TGA,10000000000.0,TGA05082019,864,9922.25,520809.92,0.029186,TRYGRAN00076,11954922.0,11838422.92,405613235.0
170,11983884.58,2019-08-07T09:31:04,100000000.0,2019-08-07,TGA,10000000000.0,TGA07082019,864,9137.94,0.0,0.029266,TRYGRAN00076,11956459.0,11377506.81,388764131.0
172,11923140.88,2019-08-09T09:35:36,100000000.0,2019-08-09,TGA,10000000000.0,TGA09082019,866,4495.98,0.0,0.029486,TRYGRAN00076,11958015.0,11860522.17,402237376.0
174,13427655.51,2019-08-16T09:31:14,100000000.0,2019-08-16,TGA,10000000000.0,TGA16082019,873,4992.5,0.0,0.029546,TRYGRAN00076,11959540.0,12502150.08,423142521.0
176,12738756.49,2019-08-20T09:50:00,100000000.0,2019-08-20,TGA,10000000000.0,TGA20082019,885,8721.47,0.0,0.029623,TRYGRAN00076,11961078.0,12714222.1,429194987.0
178,16249603.1,2019-08-27T09:22:43,100000000.0,2019-08-22,TGA,10000000000.0,TGA22082019,897,5270.76,0.0,0.029698,TRYGRAN00076,11963485.0,14517089.4,488829453.0
180,14827157.28,2019-08-26T11:50:00,100000000.0,2019-08-26,TGA,10000000000.0,TGA26082019,919,8540.78,0.0,0.029701,TRYGRAN00076,11961941.0,14724990.34,495778787.0
182,15491728.01,2019-08-29T09:31:37,100000000.0,2019-08-28,TGA,10000000000.0,TGA28082019,929,8481.85,0.0,0.029756,TRYGRAN00076,11965712.0,15132209.62,508549397.0
184,15313243.27,2019-09-02T09:26:55,100000000.0,2019-09-02,TGA,10000000000.0,TGA02092019,931,6386.68,0.0,0.029904,TRYGRAN00076,11967321.0,15301095.55,511672849.0
186,16344126.28,2019-09-04T10:50:01,100000000.0,2019-09-04,TGA,10000000000.0,TGA04092019,945,8377.01,0.0,0.030004,TRYGRAN00076,11968803.0,16323040.56,544036001.0
188,17694075.29,2019-09-06T09:34:08,100000000.0,2019-09-06,TGA,10000000000.0,TGA06092019,952,5426.75,0.0,0.030097,TRYGRAN00076,11970344.0,16913395.22,561971151.0
190,18308430.94,2019-09-10T09:50:00,100000000.0,2019-09-10,TGA,10000000000.0,TGA10092019,970,8816.69,0.0,0.030098,TRYGRAN00076,11971882.0,17411719.86,578497704.0
192,18062980.07,2019-09-12T09:35:06,100000000.0,2019-09-12,TGA,10000000000.0,TGA12092019,982,9189.16,0.0,0.030075,TRYGRAN00076,11973414.0,17886215.25,594711884.0
194,18019901.71,2019-09-16T09:29:10,100000000.0,2019-09-16,TGA,10000000000.0,TGA16092019,978,5837.63,0.0,0.030179,TRYGRAN00076,11974957.0,17993790.37,596237942.0
196,18639558.17,2019-09-18T09:35:26,100000000.0,2019-09-18,TGA,10000000000.0,TGA18092019,977,7139.37,0.0,0.030243,TRYGRAN00076,11976483.0,18318162.34,605699972.0
198,21270404.05,2019-09-20T09:38:54,100000000.0,2019-09-20,TGA,10000000000.0,TGA20092019,983,6597.38,0.0,0.030322,TRYGRAN00076,11978018.0,19030890.02,627621887.0
200,,2019-09-26T15:19:34.694,,2019-09-24,TGA,,TGA24092019,1036,,,0.030416,,,21733812.28,714562916.0
202,,2019-09-27T15:06:11.513,,2019-09-26,TGA,,TGA26092019,1054,,,0.030405,,,26087298.07,857998362.0
204,,2019-10-01T13:56:53.057,,2019-09-30,TGA,,TGA30092019,1079,,,0.030367,,,31805812.61,1047393323.0
206,,2019-10-03T10:09:15.823,,2019-10-02,TGA,,TGA02102019,1087,,,0.030484,,,33294694.74,1092204377.0
208,,2019-10-07T08:57:12.713,,2019-10-04,TGA,,TGA04102019,1102,,,0.030557,,,34054166.55,1114434344.0
210,,2019-10-09T09:53:01.808,,2019-10-08,TGA,,TGA08102019,1125,,,0.030564,,,36602572.0,1197568273.0
212,,2019-10-11T09:32:47.191,,2019-10-10,TGA,,TGA10102019,1143,,,0.030449,,,40416045.67,1327327700.0
214,,2019-10-15T11:27:41.173,,2019-10-14,TGA,,TGA14102019,1121,,,0.03039,,,37236960.03,1225285212.0
216,,2019-10-17T08:39:13.988,,2019-10-16,TGA,,TGA16102019,1116,,,0.030246,,,35936563.4,1188157497.0
218,,2019-10-18T17:19:28.296,,2019-10-18,TGA,,TGA18102019,974,,,0.030415,,,34828700.88,1145101964.0
220,,2019-10-22T11:59:01.192,,2019-10-22,TGA,,TGA22102019,988,,,0.030459,,,36181468.09,1187881504.0
222,,2019-10-24T11:59:01.672,,2019-10-24,TGA,,TGA24102019,1004,,,0.030508,,,35587472.0,1166490645.0
224,,2019-10-28T11:54:01.438,,2019-10-28,TGA,,TGA28102019,1006,,,0.03055,,,36051860.43,1180087738.0
226,,2019-10-31T11:54:01.008,,2019-10-31,TGA,,TGA31102019,1014,,,0.030497,,,36066436.55,1182617202.0
228,,2019-11-04T11:54:01.549,,2019-11-04,TGA,,TGA04112019,1010,,,0.030722,,,35422969.46,1153030750.0
230,,2019-11-06T11:54:01.102,,2019-11-06,TGA,,TGA06112019,1031,,,0.030724,,,36315609.46,1182006686.0
232,,2019-11-08T11:54:00.849,,2019-11-08,TGA,,TGA08112019,1030,,,0.030671,,,35965074.79,1172594639.0
234,,2019-11-12T11:54:01.578,,2019-11-12,TGA,,TGA12112019,1024,,,0.030808,,,35215685.01,1143080151.0
236,,2019-11-14T11:54:00.912,,2019-11-14,TGA,,TGA14112019,1024,,,0.030808,,,35051205.88,1137742514.0
238,,2019-11-18T11:54:06.575,,2019-11-18,TGA,,TGA18112019,1017,,,0.030947,,,34954599.83,1129490323.0
240,,2019-11-20T11:54:01.529,,2019-11-20,TGA,,TGA20112019,1021,,,0.030975,,,51415708.16,1659923919.0
242,,2019-11-22T11:54:01.359,,2019-11-22,TGA,,TGA22112019,1014,,,0.030952,,,51293650.54,1657185229.0
244,,2019-11-26T11:54:01.732,,2019-11-26,TGA,,TGA26112019,1016,,,0.031017,,,51404671.49,1657289326.0
246,,2019-11-28T11:54:01.783,,2019-11-28,TGA,,TGA28112019,1021,,,0.031008,,,49824522.38,1606848270.0
248,,2019-12-02T16:07:04.903,,2019-12-02,TGA,,TGA02122019,1015,,,0.031108,,,34068776.58,1095161943.0
250,,2019-12-04T14:55:10.904,,2019-12-04,TGA,,TGA04122019,1025,,,0.03132,,,34728858.66,1108843020.0
252,,2019-12-06T11:54:01.742,,2019-12-06,TGA,,TGA06122019,1043,,,0.031348,,,45780134.77,1460364766.0
254,,2019-12-10T11:54:01.675,,2019-12-10,TGA,,TGA10122019,1052,,,0.031392,,,47645821.54,1517787567.0
256,,2019-12-12T11:54:01.916,,2019-12-12,TGA,,TGA12122019,1064,,,0.031455,,,49950927.09,1588000824.0
258,,2019-12-16T11:54:01.42,,2019-12-16,TGA,,TGA16122019,1085,,,0.031404,,,51407406.03,1636967932.0
260,,2019-12-18T11:54:00.975,,2019-12-18,TGA,,TGA18122019,1089,,,0.031522,,,53211957.4,1688083660.0
262,,2019-12-20T11:54:00.915,,2019-12-20,TGA,,TGA20122019,1094,,,0.031492,,,53788643.93,1708007029.0
264,,2019-12-24T13:50:59.425,,2019-12-24,TGA,,TGA24122019,1096,,,0.031572,,,54955447.81,1740620395.0
266,,2019-12-26T11:54:00.981,,2019-12-26,TGA,,TGA26122019,1104,,,0.031655,,,54710507.1,1728362066.0
268,,2019-12-30T15:02:07.136,,2019-12-30,TGA,,TGA30122019,1092,,,0.031678,,,54154255.97,1709510817.0
270,,2020-11-20T11:03:59.166,,2020-01-02,TGA,,TGA02012020,1239,,,0.031621,,,55429937.73,1752950387.0
272,,2020-11-20T11:03:59.123,,2020-01-06,TGA,,TGA06012020,1249,,,0.031652,,,55934803.22,1767166345.0
274,,2020-11-20T11:03:59.078,,2020-01-08,TGA,,TGA08012020,1231,,,0.031628,,,55212682.15,1745669765.0
276,,2020-11-20T11:03:58.297,,2020-01-10,TGA,,TGA10012020,1219,,,0.031699,,,53832699.2,1698252467.0
278,,2020-11-20T11:03:58.25,,2020-01-14,TGA,,TGA14012020,1224,,,0.031697,,,50149858.52,1582173351.0
280,,2020-01-16T12:54:00.822,,2020-01-16,TGA,,TGA16012020,1078,,,0.031763,,,49036277.8,1543816014.0
282,,2020-01-20T12:54:00.839,,2020-01-20,TGA,,TGA20012020,1070,,,0.031861,,,48649612.94,1526936941.0
284,,2020-01-22T12:54:02.122,,2020-01-22,TGA,,TGA22012020,1067,,,0.031819,,,48312971.06,1518353974.0
286,,2020-01-24T12:54:00.807,,2020-01-24,TGA,,TGA24012020,1062,,,0.03184,,,47666347.73,1497066443.0
288,,2020-01-28T12:54:06.795,,2020-01-28,TGA,,TGA28012020,1053,,,0.031954,,,48826305.66,1528037260.0
290,,2020-01-30T12:54:01.161,,2020-01-30,TGA,,TGA30012020,1041,,,0.031845,,,48579656.72,1525484058.0
292,,2020-11-20T11:02:41.509,,2020-02-03,TGA,,TGA03022020,1156,,,0.03177,,,47890327.17,1507406673.0
294,,2020-11-20T11:02:41.446,,2020-02-05,TGA,,TGA05022020,1150,,,0.031884,,,47248879.01,1481887088.0
296,,2020-11-20T11:02:41.325,,2020-02-07,TGA,,TGA07022020,1141,,,0.031985,,,48081014.69,1503233215.0
298,,2020-11-20T11:02:41.279,,2020-02-11,TGA,,TGA11022020,1146,,,0.03194,,,46390636.42,1452429153.0
300,,2020-11-20T11:02:41.228,,2020-02-13,TGA,,TGA13022020,1138,,,0.031972,,,46344209.06,1449511857.0
302,,2020-11-20T11:06:14.163,,2020-02-17,TGA,,TGA17022020,1137,,,0.032061,,,46002582.92,1434827667.0
304,,2020-11-20T11:06:14.111,,2020-02-19,TGA,,TGA19022020,1129,,,0.032022,,,45605188.9,1424161859.0
306,,2020-11-20T11:06:14.068,,2020-02-21,TGA,,TGA21022020,1126,,,0.031865,,,45211259.0,1418843152.0
308,,2020-11-20T11:06:14.024,,2020-02-25,TGA,,TGA25022020,1116,,,0.032033,,,46345609.18,1446802833.0
310,,2020-11-20T11:06:13.974,,2020-02-27,TGA,,TGA27022020,1115,,,0.032189,,,44810951.64,1392137992.0
312,,2020-11-20T11:08:07.261,,2020-03-02,TGA,,TGA02032020,1121,,,0.032282,,,43337493.2,1342455556.0
314,,2020-11-20T11:08:07.155,,2020-03-04,TGA,,TGA04032020,1152,,,0.032411,,,42255593.34,1303746114.0
316,,2020-11-20T11:08:07.112,,2020-03-06,TGA,,TGA06032020,1165,,,0.032525,,,42758137.71,1314642219.0
318,,2020-11-20T11:08:07.07,,2020-03-10,TGA,,TGA10032020,1187,,,0.032438,,,43467149.13,1339986977.0
320,,2020-11-20T11:09:08.97,,2020-03-12,TGA,,TGA12032020,1197,,,0.032315,,,42860262.2,1326345192.0
322,,2020-11-20T11:09:08.925,,2020-03-16,TGA,,TGA16032020,1180,,,0.032415,,,43593429.43,1344868115.0
324,,2020-11-20T11:09:08.877,,2020-03-18,TGA,,TGA18032020,1156,,,0.03192,,,41823950.51,1310281827.0
326,,2020-11-20T11:09:08.829,,2020-03-20,TGA,,TGA20032020,1140,,,0.032146,,,41214041.44,1282098404.0
328,,2020-11-20T11:09:49.822,,2020-03-24,TGA,,TGA24032020,1128,,,0.031981,,,40920854.43,1279533159.0
330,,2020-11-20T11:09:49.746,,2020-03-26,TGA,,TGA26032020,1119,,,0.032288,,,40967006.11,1268794219.0
332,,2020-11-20T11:09:49.675,,2020-03-30,TGA,,TGA30032020,1122,,,0.032233,,,40810478.61,1266090315.0
334,,2020-11-20T11:11:26.593,,2020-04-01,TGA,,TGA01042020,1121,,,0.032175,,,40547043.22,1260189268.0
336,,2020-11-20T11:11:26.54,,2020-04-03,TGA,,TGA03042020,1123,,,0.032109,,,39963906.31,1244636651.0
338,,2020-11-20T11:11:26.495,,2020-04-07,TGA,,TGA07042020,1117,,,0.032175,,,40167647.94,1248423628.0
340,,2020-11-20T11:11:26.395,,2020-04-09,TGA,,TGA09042020,1106,,,0.032251,,,39996078.52,1240149054.0
342,,2020-11-20T11:12:11.216,,2020-04-13,TGA,,TGA13042020,1093,,,0.032272,,,39478540.31,1223305664.0
344,,2020-11-20T11:12:11.168,,2020-04-15,TGA,,TGA15042020,1092,,,0.032531,,,40010824.58,1229943966.0
346,,2020-11-20T11:12:11.106,,2020-04-17,TGA,,TGA17042020,1085,,,0.032236,,,38978821.09,1209166940.0
348,,2020-11-20T11:13:03.629,,2020-04-21,TGA,,TGA21042020,1085,,,0.03235,,,39212298.65,1212141648.0
350,,2020-11-20T11:13:03.581,,2020-04-24,TGA,,TGA24042020,1077,,,0.032478,,,39298699.99,1209992639.0
352,,2020-11-20T11:13:03.519,,2020-04-28,TGA,,TGA28042020,1076,,,0.0327,,,39528214.92,1208825788.0
354,,2020-11-20T11:13:03.457,,2020-04-30,TGA,,TGA30042020,1076,,,0.032617,,,39343003.31,1206204368.0
356,,2020-11-20T11:13:42.958,,2020-05-05,TGA,,TGA05052020,1083,,,0.032716,,,39542768.96,1208658734.0
358,,2020-11-20T11:13:42.891,,2020-05-07,TGA,,TGA07052020,1086,,,0.032732,,,39351042.38,1202201653.0
360,,2020-11-20T11:14:12.914,,2020-05-11,TGA,,TGA11052020,1082,,,0.032641,,,39390190.0,1206786937.0
362,,2020-11-20T11:14:12.862,,2020-05-13,TGA,,TGA13052020,1076,,,0.032724,,,39295093.58,1200810391.0
364,,2020-11-20T11:14:12.814,,2020-05-15,TGA,,TGA15052020,1096,,,0.032985,,,39624018.16,1201282380.0
366,,2020-11-20T11:14:12.74,,2020-05-20,TGA,,TGA20052020,1116,,,0.033116,,,39029913.16,1178577981.0
368,,2020-11-20T11:14:55.072,,2020-05-22,TGA,,TGA22052020,1113,,,0.032993,,,40357748.17,1223229427.0
370,,2020-11-20T11:14:55.022,,2020-05-28,TGA,,TGA28052020,1117,,,0.032966,,,40750780.75,1236132027.0
372,,2020-11-20T11:15:42.416,,2020-06-01,TGA,,TGA01062020,1119,,,0.033102,,,41612559.2,1257098431.0
374,,2020-11-20T11:15:42.361,,2020-06-03,TGA,,TGA03062020,1124,,,0.033015,,,41597192.46,1259936194.0
376,,2020-11-20T11:15:42.308,,2020-06-05,TGA,,TGA05062020,1116,,,0.032866,,,41236792.05,1254702879.0
378,,2020-11-20T11:15:42.238,,2020-06-09,TGA,,TGA09062020,1118,,,0.032961,,,41388713.29,1255679173.0
380,,2020-11-20T11:16:26.223,,2020-06-11,TGA,,TGA11062020,1114,,,0.032881,,,40509534.23,1232002409.0
382,,2020-11-20T11:16:26.172,,2020-06-15,TGA,,TGA15062020,1106,,,0.032965,,,40741453.91,1235881725.0
384,,2020-11-20T11:16:26.047,,2020-06-17,TGA,,TGA17062020,1099,,,0.032946,,,40410479.62,1226563992.0
386,,2020-11-20T11:16:25.999,,2020-06-19,TGA,,TGA19062020,1093,,,0.032772,,,40392243.48,1232535314.0
388,,2020-11-20T11:17:01.734,,2020-06-23,TGA,,TGA23062020,1096,,,0.032873,,,40427184.93,1229785986.0
390,,2020-11-20T11:17:01.678,,2020-06-25,TGA,,TGA25062020,1088,,,0.032802,,,40189957.42,1225219867.0
392,,2020-11-20T11:17:01.628,,2020-06-29,TGA,,TGA29062020,1084,,,0.032921,,,39661247.58,1204756752.0
394,,2020-11-20T11:18:12.532,,2020-07-01,TGA,,TGA01072020,1086,,,0.033272,,,40033582.25,1203218079.0
396,,2020-11-20T11:18:12.414,,2020-07-03,TGA,,TGA03072020,1094,,,0.033219,,,40146422.77,1208554370.0
398,,2020-11-20T11:18:12.346,,2020-07-07,TGA,,TGA07072020,1091,,,0.033164,,,39984235.85,1205639300.0
400,,2020-11-20T11:18:12.187,,2020-07-09,TGA,,TGA09072020,1089,,,0.033232,,,39679599.85,1194017578.0
402,,2020-11-20T11:18:54.389,,2020-07-13,TGA,,TGA13072020,1085,,,0.032991,,,39231891.12,1189156976.0
404,,2020-11-20T11:18:54.331,,2020-07-16,TGA,,TGA16072020,1079,,,0.033136,,,38900255.29,1173948074.0
406,,2020-11-20T11:18:54.2,,2020-07-20,TGA,,TGA20072020,1076,,,0.033292,,,38062382.93,1143277366.0
408,,2020-11-20T11:19:24.862,,2020-07-22,TGA,,TGA22072020,1080,,,0.03332,,,38119986.9,1144072925.0
410,,2020-11-20T11:19:24.802,,2020-07-24,TGA,,TGA24072020,1074,,,0.033271,,,37866175.87,1138127757.0
412,,2020-11-20T11:19:24.593,,2020-07-28,TGA,,TGA28072020,1073,,,0.033255,,,37716040.37,1134132708.0
414,,2020-11-20T11:19:24.498,,2020-07-30,TGA,,TGA30072020,1068,,,0.033302,,,37484765.18,1125596106.0
416,,2020-11-20T11:21:17.72,,2020-08-05,TGA,,TGA05082020,1061,,,0.033295,,,37291865.11,1120054468.0
418,,2020-11-20T11:21:17.599,,2020-08-07,TGA,,TGA07082020,1040,,,0.033036,,,36656772.61,1109584041.0
420,,2020-11-20T11:22:13.66,,2020-08-11,TGA,,TGA11082020,1029,,,0.033473,,,36554176.63,1092053642.0
422,,2020-11-20T11:22:13.605,,2020-08-13,TGA,,TGA13082020,1020,,,0.033335,,,35524750.96,1065703943.0
424,,2020-11-20T11:22:13.54,,2020-08-17,TGA,,TGA17082020,1015,,,0.033105,,,34981900.95,1056708785.0
426,,2020-11-20T11:22:13.451,,2020-08-19,TGA,,TGA19082020,1007,,,0.033115,,,34648200.61,1046303335.0
428,,2020-11-20T11:23:02.6,,2020-08-21,TGA,,TGA21082020,1001,,,0.033255,,,34383750.37,1033954363.0
430,,2020-11-20T11:23:02.547,,2020-08-25,TGA,,TGA25082020,1002,,,0.033227,,,33193627.33,998994521.0
432,,2020-11-20T11:23:02.491,,2020-08-27,TGA,,TGA27082020,1003,,,0.033435,,,32803804.0,981124466.0
434,,2020-11-20T11:23:02.348,,2020-08-31,TGA,,TGA31082020,993,,,0.033587,,,32797443.68,976493058.0
436,,2020-11-20T11:24:04.64,,2020-09-02,TGA,,TGA02092020,992,,,0.033604,,,32448267.73,965597351.0
438,,2020-11-20T11:24:04.557,,2020-09-04,TGA,,TGA04092020,988,,,0.033652,,,32549604.73,967233944.0
440,,2020-11-20T11:24:04.483,,2020-09-08,TGA,,TGA08092020,993,,,0.033696,,,32397537.65,961456514.0
442,,2020-11-20T11:24:04.404,,2020-09-10,TGA,,TGA10092020,989,,,0.033607,,,32275249.32,960366595.0
444,,2020-11-20T11:24:54.04,,2020-09-14,TGA,,TGA14092020,983,,,0.03374,,,32314317.67,957757307.0
446,,2020-11-20T11:24:53.982,,2020-09-16,TGA,,TGA16092020,976,,,0.033782,,,32389589.08,958768657.0
448,,2020-11-20T11:24:53.833,,2020-09-18,TGA,,TGA18092020,974,,,0.033793,,,32276866.44,955143197.0
450,,2020-11-20T11:25:50.893,,2020-09-22,TGA,,TGA22092020,976,,,0.033948,,,32316797.52,951963409.0
452,,2020-11-20T11:25:50.833,,2020-09-24,TGA,,TGA24092020,976,,,0.033942,,,32180767.82,948106891.0
454,,2020-11-20T11:25:50.751,,2020-09-28,TGA,,TGA28092020,975,,,0.033919,,,32078863.89,945740399.0
456,,2020-11-20T11:25:50.667,,2020-09-30,TGA,,TGA30092020,975,,,0.034011,,,32137991.76,944930012.0
458,,2020-11-20T11:27:20.866,,2020-10-02,TGA,,TGA02102020,973,,,0.034151,,,31881230.8,933541480.0
460,,2020-11-20T11:27:20.815,,2020-10-06,TGA,,TGA06102020,969,,,0.033995,,,33144784.45,974995692.0
462,,2020-11-20T11:27:20.767,,2020-10-08,TGA,,TGA08102020,964,,,0.034083,,,32860095.69,964125125.0
464,,2020-11-20T11:30:28.833,,2020-10-12,TGA,,TGA12102020,957,,,0.033974,,,31269853.88,920413218.0
466,,2020-11-20T11:30:28.778,,2020-10-14,TGA,,TGA14102020,954,,,0.03453,,,30810453.87,892288661.0
468,,2020-11-20T11:30:28.72,,2020-10-16,TGA,,TGA16102020,951,,,0.034509,,,30663905.48,888567197.0
470,,2020-11-20T11:30:28.653,,2020-10-20,TGA,,TGA20102020,950,,,0.034599,,,30664169.71,886261822.0
472,,2020-11-20T11:31:26.991,,2020-10-22,TGA,,TGA22102020,952,,,0.034488,,,30547145.32,885732217.0
474,,2020-11-20T11:31:26.897,,2020-10-26,TGA,,TGA26102020,949,,,0.034549,,,30480598.77,882245606.0
476,,2020-11-20T11:31:26.84,,2020-10-28,TGA,,TGA28102020,950,,,0.034479,,,30409468.89,881960215.0
478,,2020-12-01T10:03:18.831,,2020-11-02,TGA,,TGA02112020,948,,,0.034453,,,30354642.51,881054943.0
480,,2020-12-01T10:03:18.749,,2020-11-04,TGA,,TGA04112020,943,,,0.034368,,,29933236.21,870952102.0
482,,2020-12-01T10:03:18.668,,2020-11-06,TGA,,TGA06112020,938,,,0.034578,,,29132910.16,842531289.0
484,,2020-12-01T10:03:18.597,,2020-11-10,TGA,,TGA10112020,935,,,0.034254,,,28515733.82,832480862.0
486,,2020-12-01T10:04:35.126,,2020-11-12,TGA,,TGA12112020,928,,,0.034084,,,28311295.09,830639215.0
488,,2020-12-01T10:04:35.069,,2020-11-16,TGA,,TGA16112020,926,,,0.034372,,,28373790.44,825485105.0
490,,2020-12-01T10:04:34.993,,2020-11-18,TGA,,TGA18112020,928,,,0.034228,,,28299990.52,826798176.0
492,,2020-12-01T10:04:34.915,,2020-11-20,TGA,,TGA20112020,923,,,0.03442,,,28077199.1,815716265.0
494,,2020-12-01T10:05:35.669,,2020-11-24,TGA,,TGA24112020,926,,,0.03444,,,27509464.06,798769574.0
496,,2020-12-01T10:05:35.61,,2020-11-26,TGA,,TGA26112020,923,,,0.034422,,,27550752.58,800370654.0
498,,2020-12-01T10:05:35.552,,2020-11-30,TGA,,TGA30112020,916,,,0.034257,,,27229735.86,794874810.0
500,,2020-12-02T23:00:07.192,,2020-12-02,TGA,,TGA02122020,822,,,0.034309,,,27206828.87,792989796.0
502,,2020-12-04T23:00:28.434,,2020-12-04,TGA,,TGA04122020,818,,,0.034424,,,26861512.67,780318253.0
504,,2020-12-08T23:00:00.834,,2020-12-08,TGA,,TGA08122020,811,,,0.034596,,,26865323.21,776533392.0
506,,2020-12-10T23:00:09.907,,2020-12-10,TGA,,TGA10122020,810,,,0.034706,,,25312799.39,729347853.0
508,,2020-12-14T23:00:02.729,,2020-12-14,TGA,,TGA14122020,808,,,0.034701,,,24749767.05,713234804.0
510,,2020-12-16T23:00:02.883,,2020-12-16,TGA,,TGA16122020,804,,,0.034836,,,24845683.7,713211052.0
512,,2020-12-18T23:00:01.486,,2020-12-18,TGA,,TGA18122020,803,,,0.034929,,,24794155.98,709845025.0
514,,2020-12-22T23:00:02.703,,2020-12-22,TGA,,TGA22122020,801,,,0.034874,,,18885860.74,541540096.0
516,,2020-12-24T23:00:00.797,,2020-12-24,TGA,,TGA24122020,798,,,0.034806,,,13374621.63,384257293.0
518,,2020-12-28T23:00:00.789,,2020-12-28,TGA,,TGA28122020,795,,,0.034956,,,13630423.07,389926639.0
520,,2020-12-30T23:00:00.83,,2020-12-30,TGA,,TGA30122020,798,,,0.034618,,,13247008.21,382661094.0
522,,2021-01-04T23:00:00.786,,2021-01-04,TGA,,TGA04012021,795,,,0.034761,,,13802841.35,397081816.0
524,,2021-01-06T23:00:02.874,,2021-01-06,TGA,,TGA06012021,793,,,0.035137,,,13026571.4,370731781.0
526,,2021-01-08T23:00:09.801,,2021-01-08,TGA,,TGA08012021,793,,,0.034848,,,13088955.64,375603980.0
528,,2021-01-12T23:00:01.58,,2021-01-12,TGA,,TGA12012021,790,,,0.03526,,,13002545.85,368760033.0
530,,2021-01-14T23:00:01.652,,2021-01-14,TGA,,TGA14012021,800,,,0.035304,,,12986655.17,367851485.0
532,,2021-01-18T23:00:02.627,,2021-01-18,TGA,,TGA18012021,802,,,0.03534,,,13209429.36,373786381.0
534,,2021-01-20T23:00:04.884,,2021-01-20,TGA,,TGA20012021,820,,,0.035418,,,13520521.43,381740829.0
536,,2021-01-22T23:00:05.154,,2021-01-22,TGA,,TGA22012021,829,,,0.035538,,,13854260.57,389838245.0
538,,2021-01-26T23:00:01.648,,2021-01-26,TGA,,TGA26012021,836,,,0.035544,,,14071407.57,395890674.0
540,,2021-01-28T23:00:00.783,,2021-01-28,TGA,,TGA28012021,847,,,0.03522,,,14003080.46,397591673.0
542,,2021-02-01T23:00:00.859,,2021-02-01,TGA,,TGA01022021,850,,,0.0354,,,14261561.15,402869102.0
544,,2021-02-03T23:00:00.916,,2021-02-03,TGA,,TGA03022021,858,,,0.03557,,,14100750.77,396419058.0
546,,2021-02-05T23:00:00.897,,2021-02-05,TGA,,TGA05022021,873,,,0.035569,,,14237117.74,400271417.0
548,,2021-02-09T12:54:02.089,,2021-02-09,TGA,,TGA09022021,885,,,0.03571,,,14374848.29,402548734.0
550,,2021-02-11T23:00:01.229,,2021-02-11,TGA,,TGA11022021,929,,,0.035691,,,13590198.12,380773101.0
552,,2021-02-15T23:00:01.633,,2021-02-15,TGA,,TGA15022021,923,,,0.035849,,,13661875.58,381099534.0
554,,2021-02-17T23:00:01.664,,2021-02-17,TGA,,TGA17022021,943,,,0.035915,,,14560397.59,405415896.0
556,,2021-02-19T23:00:00.874,,2021-02-19,TGA,,TGA19022021,951,,,0.035772,,,15729167.06,439700998.0
558,,2021-02-23T23:00:00.915,,2021-02-23,TGA,,TGA23022021,960,,,0.035916,,,15999930.03,445487746.0
560,,2021-02-25T12:54:00.777,,2021-02-25,TGA,,TGA25022021,965,,,0.035707,,,15388427.56,430959856.0
562,,2021-03-02T10:49:11.113,,2021-03-01,TGA,,TGA01032021,1044,,,0.035844,,,15000687.3,418496039.0
564,,2021-03-04T09:15:32.937,,2021-03-03,TGA,,TGA03032021,1067,,,0.035728,,,15271852.01,427450473.0
566,,2021-03-07T17:08:16.448,,2021-03-05,TGA,,TGA05032021,971,,,0.0359,,,14764393.12,411261468.0
568,,2021-03-10T09:41:46.912,,2021-03-09,TGA,,TGA09032021,1075,,,0.036033,,,15171013.32,421030089.0
570,,2021-03-12T09:03:24.008,,2021-03-11,TGA,,TGA11032021,1069,,,0.03593,,,14688952.77,408819320.0
572,,2021-03-16T09:22:02.074,,2021-03-15,TGA,,TGA15032021,1070,,,0.03602,,,14554177.14,404056370.0
574,,2021-03-18T09:19:22.971,,2021-03-17,TGA,,TGA17032021,1062,,,0.036113,,,14859270.22,411464406.0
576,,2021-03-22T08:33:09.186,,2021-03-19,TGA,,TGA19032021,1064,,,0.036196,,,14373211.82,397097911.0
578,,2021-03-24T08:29:47.099,,2021-03-23,TGA,,TGA23032021,1093,,,0.036192,,,14784549.95,408502066.0
580,,2021-03-26T09:23:54.096,,2021-03-25,TGA,,TGA25032021,1091,,,0.036049,,,14389948.77,399174479.0
582,,2021-03-30T09:06:14.397,,2021-03-29,TGA,,TGA29032021,1089,,,0.036359,,,14398701.64,396012556.0
584,,2021-04-01T08:24:16.033,,2021-03-31,TGA,,TGA31032021,1088,,,0.0365,,,14912486.12,408556725.0
586,,2021-04-05T09:10:59.734,,2021-04-02,TGA,,TGA02042021,1077,,,0.036539,,,15460957.7,423131043.0
588,,2021-04-09T23:00:02.065,,2021-04-06,TGA,,TGA06042021,1099,,,0.036722,,,15141234.1,412325386.0
590,,2021-04-12T23:00:00.239,,2021-04-08,TGA,,TGA08042021,1102,,,0.036802,,,15762784.46,428315597.0
592,,2021-04-16T23:00:10.796,,2021-04-12,TGA,,TGA12042021,1104,,,0.03694,,,15438957.28,417946770.0
594,,2021-04-16T23:00:05.682,,2021-04-14,TGA,,TGA14042021,1103,,,0.036883,,,15422365.01,418147727.0
596,,2021-04-20T23:00:08.768,,2021-04-16,TGA,,TGA16042021,1098,,,0.036821,,,15397169.51,418166933.0
598,,2021-04-23T23:00:07.593,,2021-04-20,TGA,,TGA20042021,1097,,,0.036923,,,15411917.49,417405508.0
600,,2021-04-26T23:00:08.489,,2021-04-22,TGA,,TGA22042021,1092,,,0.036772,,,15220469.47,413915705.0
602,,2021-04-30T23:00:10.458,,2021-04-27,TGA,,TGA27042021,1113,,,0.037202,,,15251461.66,409960231.0
604,,2021-05-03T23:00:17.628,,2021-04-29,TGA,,TGA29042021,1122,,,0.037493,,,15311640.14,408386570.0
606,,2021-05-07T23:00:16.61,,2021-05-03,TGA,,TGA03052021,1146,,,0.037611,,,15661600.49,416415506.0
608,,2021-05-07T23:00:09.263,,2021-05-05,TGA,,TGA05052021,1221,,,0.03788,,,16082942.94,424581672.0
610,,2021-05-11T23:00:23.549,,2021-05-07,TGA,,TGA07052021,1264,,,0.038004,,,17134684.31,450868108.0
612,,2021-05-14T23:00:11.035,,2021-05-11,TGA,,TGA11052021,1298,,,0.038343,,,18160699.08,473636925.0
614,,2021-05-21T23:00:13.748,,2021-05-17,TGA,,TGA17052021,1339,,,0.038222,,,18816382.24,492296359.0
616,,2021-05-24T23:00:12.875,,2021-05-20,TGA,,TGA20052021,1354,,,0.038496,,,20618203.22,535596688.0
618,,2021-05-28T23:00:10.531,,2021-05-24,TGA,,TGA24052021,1372,,,0.038641,,,20496638.93,530437824.0
620,,2021-05-28T23:00:05.722,,2021-05-26,TGA,,TGA26052021,1402,,,0.038017,,,21362613.73,561918433.0
622,,2021-06-01T23:00:08.416,,2021-05-28,TGA,,TGA28052021,1402,,,0.038291,,,21366810.25,558011749.0
624,,2021-06-04T23:00:09.628,,2021-06-01,TGA,,TGA01062021,1405,,,0.038257,,,20717821.63,541538938.0
626,,2021-06-07T23:00:09.888,,2021-06-03,TGA,,TGA03062021,1427,,,0.038198,,,21238720.39,556022885.0
628,,2021-06-11T23:00:13.974,,2021-06-07,TGA,,TGA07062021,1415,,,0.038285,,,21000832.28,548537521.0
630,,2021-06-11T23:00:05.084,,2021-06-09,TGA,,TGA09062021,1409,,,0.038471,,,21342982.65,554784211.0
632,,2021-06-15T23:00:12.05,,2021-06-11,TGA,,TGA11062021,1411,,,0.038617,,,22396661.92,579975821.0
634,,2021-06-18T23:00:13.593,,2021-06-15,TGA,,TGA15062021,1412,,,0.038457,,,22297660.4,579800725.0
636,,2021-06-21T23:00:11.939,,2021-06-17,TGA,,TGA17062021,1415,,,0.038222,,,22052621.12,576964672.0
638,,2021-06-25T23:00:15.806,,2021-06-21,TGA,,TGA21062021,1403,,,0.037811,,,21507873.39,568819186.0
640,,2021-06-25T23:00:10.431,,2021-06-23,TGA,,TGA23062021,1396,,,0.038174,,,21482479.42,562757445.0
642,,2021-06-29T23:00:07.977,,2021-06-25,TGA,,TGA25062021,1395,,,0.038258,,,21397058.41,559285535.0
644,,2021-07-02T23:00:09.822,,2021-06-29,TGA,,TGA29062021,1392,,,0.037718,,,20748649.94,550100571.0
646,,2021-07-05T23:00:10.015,,2021-07-01,TGA,,TGA01072021,1380,,,0.037606,,,20465944.6,544219900.0
648,,2021-07-09T23:00:11.749,,2021-07-05,TGA,,TGA05072021,1371,,,0.038182,,,20724514.18,542785974.0
650,,2021-07-09T23:00:06.492,,2021-07-07,TGA,,TGA07072021,1371,,,0.038359,,,20704362.47,539757221.0
652,,2021-07-13T23:00:11.098,,2021-07-09,TGA,,TGA09072021,1372,,,0.038301,,,21093745.57,550729140.0
654,,2021-07-16T23:00:16.257,,2021-07-13,TGA,,TGA13072021,1379,,,0.038199,,,21098327.46,552329716.0
656,,2021-07-20T23:00:09.883,,2021-07-16,TGA,,TGA16072021,1371,,,0.038321,,,20853392.56,544175481.0
658,,2021-07-30T23:00:11.498,,2021-07-26,TGA,,TGA26072021,1373,,,0.038215,,,20673849.82,540983961.0
660,,2021-07-30T23:00:06.209,,2021-07-28,TGA,,TGA28072021,1359,,,0.038494,,,20757049.34,539225173.0
662,,2021-08-03T23:00:09.116,,2021-07-30,TGA,,TGA30072021,1349,,,0.038824,,,20491654.35,527802929.0
664,,2021-08-06T23:00:08.949,,2021-08-03,TGA,,TGA03082021,1343,,,0.039193,,,20375835.66,519882614.0
666,,2021-08-09T23:00:11.48,,2021-08-05,TGA,,TGA05082021,1372,,,0.039635,,,21047276.62,531023680.0
668,,2021-08-13T23:00:12.468,,2021-08-09,TGA,,TGA09082021,1382,,,0.039917,,,21646874.0,542303852.0
670,,2021-08-13T23:00:06.739,,2021-08-11,TGA,,TGA11082021,1403,,,0.040202,,,22019535.59,547723972.0
672,,2021-08-17T23:00:09.192,,2021-08-13,TGA,,TGA13082021,1417,,,0.040194,,,22766281.8,566410431.0
674,,2021-08-20T23:00:08.502,,2021-08-17,TGA,,TGA17082021,1431,,,0.040456,,,24241064.25,599193723.0
676,,2021-08-23T23:00:11.103,,2021-08-19,TGA,,TGA19082021,1433,,,0.040297,,,24415190.95,605877043.0
677,,2021-08-23T23:00:07.465,,2021-08-20,TGA,,TGA20082021,1434,,,0.040254,,,24218947.46,601660397.0